#WASP-17b White lightcurve HST WFC3 G102 (GO-14918)
#Wavelength array (angstroms)
#-----------------------------------------
      5941.8864158   
      5966.2864097   
      5990.6864341   
      6015.0864280   
      6039.4864219   
      6063.8864158   
      6088.2864097   
      6112.6864341   
      6137.0864127   
      6161.4864219   
      6185.8864158   
      6210.2864250   
      6234.6864189   
      6259.0864204   
      6283.4864143   
      6307.8864158   
      6332.2864173   
      6356.6864160   
      6381.0864156   
      6405.4864143   
      6429.8864158   
      6454.2864173   
      6478.6864112   
      6503.0864127   
      6527.4864066   
      6551.8864158   
      6576.2864097   
      6600.6864189   
      6625.0863975   
      6649.4864219   
      6673.8864158   
      6698.2864097   
      6722.6864036   
      6747.0863975   
      6771.4864219   
      6795.8864158   
      6820.2864097   
      6844.6864036   
      6869.0863975   
      6893.4863914   
      6917.8864158   
      6942.2863792   
      6966.6864036   
      6991.0864280   
      7015.4863914   
      7039.8864158   
      7064.2863792   
      7088.6864036   
      7113.0864280   
      7137.4863914   
      7161.8864158   
      7186.2863792   
      7210.6864036   
      7235.0864280   
      7259.4863914   
      7283.8864158   
      7308.2863792   
      7332.6864036   
      7357.0864280   
      7381.4863914   
      7405.8864158   
      7430.2864402   
      7454.6863426   
      7479.0863670   
      7503.4863914   
      7527.8864158   
      7552.2864402   
      7576.6863426   
      7601.0863670   
      7625.4863914   
      7649.8864158   
      7674.2864402   
      7698.6863426   
      7723.0863670   
      7747.4863914   
      7771.8864158   
      7796.2864402   
      7820.6863426   
      7845.0863670   
      7869.4863914   
      7893.8864158   
      7918.2864402   
      7942.6863426   
      7967.0863670   
      7991.4863914   
      8015.8864158   
      8040.2864402   
      8064.6863426   
      8089.0863670   
      8113.4863914   
      8137.8864158   
      8162.2864402   
      8186.6863426   
      8211.0863670   
      8235.4863914   
      8259.8864158   
      8284.2864402   
      8308.6863426   
      8333.0863670   
      8357.4863914   
      8381.8864158   
      8406.2864402   
      8430.6864646   
      8455.0863670   
      8479.4862693   
      8503.8864158   
      8528.2863181   
      8552.6864646   
      8577.0863670   
      8601.4862693   
      8625.8864158   
      8650.2863181   
      8674.6864646   
      8699.0863670   
      8723.4862693   
      8747.8864158   
      8772.2863181   
      8796.6864646   
      8821.0863670   
      8845.4862693   
      8869.8864158   
      8894.2863181   
      8918.6864646   
      8943.0863670   
      8967.4862693   
      8991.8864158   
      9016.2863181   
      9040.6864646   
      9065.0863670   
      9089.4862693   
      9113.8864158   
      9138.2863181   
      9162.6864646   
      9187.0863670   
      9211.4862693   
      9235.8864158   
      9260.2863181   
      9284.6864646   
      9309.0863670   
      9333.4862693   
      9357.8864158   
      9382.2863181   
      9406.6864646   
      9431.0863670   
      9455.4862693   
      9479.8864158   
      9504.2863181   
      9528.6864646   
      9553.0863670   
      9577.4862693   
      9601.8864158   
      9626.2863181   
      9650.6864646   
      9675.0863670   
      9699.4862693   
      9723.8864158   
      9748.2863181   
      9772.6864646   
      9797.0863670   
      9821.4862693   
      9845.8864158   
      9870.2863181   
      9894.6864646   
      9919.0863670   
      9943.4862693   
      9967.8864158   
      9992.2863181   
     10016.6864646   
     10041.0863670   
     10065.4862693   
     10089.8864158   
     10114.2863181   
     10138.6864646   
     10163.0863670   
     10187.4862693   
     10211.8864158   
     10236.2863181   
     10260.6864646   
     10285.0863670   
     10309.4862693   
     10333.8864158   
     10358.2863181   
     10382.6864646   
     10407.0863670   
     10431.4862693   
     10455.8864158   
     10480.2863181   
     10504.6862205   
     10529.0861228   
     10553.4865135   
     10577.8864158   
     10602.2863181   
     10626.6862205   
     10651.0861228   
     10675.4865135   
     10699.8864158   
     10724.2863181   
     10748.6862205   
     10773.0861228   
     10797.4865135   
     10821.8864158   
     10846.2863181   
     10870.6862205   
     10895.0861228   
     10919.4865135   
     10943.8864158   
     10968.2863181   
     10992.6862205   
     11017.0861228   
     11041.4865135   
     11065.8864158   
     11090.2863181   
     11114.6862205   
     11139.0861228   
     11163.4865135   
     11187.8864158   
     11212.2863181   
     11236.6862205   
     11261.0861228   
     11285.4865135   
     11309.8864158   
     11334.2863181   
     11358.6862205   
     11383.0861228   
     11407.4865135   
     11431.8864158   
     11456.2863181   
     11480.6862205   
     11505.0861228   
     11529.4865135   
     11553.8864158   
     11578.2863181   
     11602.6862205   
     11627.0861228   
     11651.4865135   
     11675.8864158   
     11700.2863181   
     11724.6862205   
     11749.0861228   
     11773.4865135   
